trials.thisRepN,trials.thisTrialN,trials.thisN,trials.thisIndex,polygon_2.started,polygon_2.stopped,key_resp_3.keys,key_resp_3.corr,key_resp_3.rt,gender (m/f),age,participant,date,expName,psychopyVersion,frameRate,
0,0,0,0,180.64626841400604,None,j,1,0.5204942170021241,m,19,mingda_green_red,2020_Aug_20_1243,DualColor_green_red,2020.1.2,59.81961610132346,
1,0,1,0,182.81313555800443,None,f,1,0.3661181830029818,m,19,mingda_green_red,2020_Aug_20_1243,DualColor_green_red,2020.1.2,59.81961610132346,
2,0,2,0,185.12973004800006,None,j,1,0.5464026620029472,m,19,mingda_green_red,2020_Aug_20_1243,DualColor_green_red,2020.1.2,59.81961610132346,
3,0,3,0,187.24616189800145,None,f,1,0.4039845340012107,m,19,mingda_green_red,2020_Aug_20_1243,DualColor_green_red,2020.1.2,59.81961610132346,
4,0,4,0,189.27992386700498,None,f,1,0.343108871995355,m,19,mingda_green_red,2020_Aug_20_1243,DualColor_green_red,2020.1.2,59.81961610132346,
5,0,5,0,191.4628252600014,None,f,1,0.3156350770004792,m,19,mingda_green_red,2020_Aug_20_1243,DualColor_green_red,2020.1.2,59.81961610132346,
6,0,6,0,193.67991205500584,None,f,1,0.31408279400056927,m,19,mingda_green_red,2020_Aug_20_1243,DualColor_green_red,2020.1.2,59.81961610132346,
7,0,7,0,195.96284847700008,None,f,1,0.3322006899979897,m,19,mingda_green_red,2020_Aug_20_1243,DualColor_green_red,2020.1.2,59.81961610132346,
8,0,8,0,197.8130199300067,None,j,1,0.38878581800236134,m,19,mingda_green_red,2020_Aug_20_1243,DualColor_green_red,2020.1.2,59.81961610132346,
9,0,9,0,200.12926305900328,None,j,1,0.38085357700038003,m,19,mingda_green_red,2020_Aug_20_1243,DualColor_green_red,2020.1.2,59.81961610132346,
10,0,10,0,202.4627586620045,None,f,1,0.36485679599718424,m,19,mingda_green_red,2020_Aug_20_1243,DualColor_green_red,2020.1.2,59.81961610132346,
11,0,11,0,204.81305560300098,None,f,1,0.431371467995632,m,19,mingda_green_red,2020_Aug_20_1243,DualColor_green_red,2020.1.2,59.81961610132346,
12,0,12,0,206.96246203000192,None,j,1,0.36529955900186906,m,19,mingda_green_red,2020_Aug_20_1243,DualColor_green_red,2020.1.2,59.81961610132346,
13,0,13,0,209.12959401300031,None,j,1,0.40763113599678036,m,19,mingda_green_red,2020_Aug_20_1243,DualColor_green_red,2020.1.2,59.81961610132346,
14,0,14,0,211.2457785630031,None,j,1,0.33242739900015295,m,19,mingda_green_red,2020_Aug_20_1243,DualColor_green_red,2020.1.2,59.81961610132346,
15,0,15,0,213.5461885620025,None,f,1,0.321587932005059,m,19,mingda_green_red,2020_Aug_20_1243,DualColor_green_red,2020.1.2,59.81961610132346,
16,0,16,0,215.66251558000658,None,f,0,0.3169078470018576,m,19,mingda_green_red,2020_Aug_20_1243,DualColor_green_red,2020.1.2,59.81961610132346,
17,0,17,0,217.6624016890055,None,j,1,0.36347461600234965,m,19,mingda_green_red,2020_Aug_20_1243,DualColor_green_red,2020.1.2,59.81961610132346,
18,0,18,0,219.89573040600226,None,f,1,0.3791728419964784,m,19,mingda_green_red,2020_Aug_20_1243,DualColor_green_red,2020.1.2,59.81961610132346,
19,0,19,0,222.0631193530062,None,f,1,0.4607205130014336,m,19,mingda_green_red,2020_Aug_20_1243,DualColor_green_red,2020.1.2,59.81961610132346,
20,0,20,0,224.09534788200108,None,f,1,0.36854508399846964,m,19,mingda_green_red,2020_Aug_20_1243,DualColor_green_red,2020.1.2,59.81961610132346,
21,0,21,0,226.01210311300383,None,f,1,0.321484767999209,m,19,mingda_green_red,2020_Aug_20_1243,DualColor_green_red,2020.1.2,59.81961610132346,
22,0,22,0,227.89557250800135,None,f,1,0.28689877899887506,m,19,mingda_green_red,2020_Aug_20_1243,DualColor_green_red,2020.1.2,59.81961610132346,
23,0,23,0,229.79522174000158,None,f,1,0.29727517499850364,m,19,mingda_green_red,2020_Aug_20_1243,DualColor_green_red,2020.1.2,59.81961610132346,
24,0,24,0,232.0123710140033,None,j,1,0.4280227929993998,m,19,mingda_green_red,2020_Aug_20_1243,DualColor_green_red,2020.1.2,59.81961610132346,
25,0,25,0,234.19519543600472,None,f,1,0.3111970520039904,m,19,mingda_green_red,2020_Aug_20_1243,DualColor_green_red,2020.1.2,59.81961610132346,
26,0,26,0,236.26186035000137,None,j,1,0.3804655669955537,m,19,mingda_green_red,2020_Aug_20_1243,DualColor_green_red,2020.1.2,59.81961610132346,
27,0,27,0,238.4617525470021,None,j,1,0.3275672099989606,m,19,mingda_green_red,2020_Aug_20_1243,DualColor_green_red,2020.1.2,59.81961610132346,
28,0,28,0,240.6619137670059,None,j,1,0.30635178700322285,m,19,mingda_green_red,2020_Aug_20_1243,DualColor_green_red,2020.1.2,59.81961610132346,
29,0,29,0,242.74533549500484,None,j,1,0.32058036999660544,m,19,mingda_green_red,2020_Aug_20_1243,DualColor_green_red,2020.1.2,59.81961610132346,
30,0,30,0,244.9951502910044,None,j,1,0.3447431609965861,m,19,mingda_green_red,2020_Aug_20_1243,DualColor_green_red,2020.1.2,59.81961610132346,
31,0,31,0,247.2778059770062,None,f,1,0.4082242980002775,m,19,mingda_green_red,2020_Aug_20_1243,DualColor_green_red,2020.1.2,59.81961610132346,
32,0,32,0,249.52856992700254,None,j,1,0.3832698390033329,m,19,mingda_green_red,2020_Aug_20_1243,DualColor_green_red,2020.1.2,59.81961610132346,
33,0,33,0,251.7613762760011,None,f,1,0.3802998910032329,m,19,mingda_green_red,2020_Aug_20_1243,DualColor_green_red,2020.1.2,59.81961610132346,
34,0,34,0,253.6785029310049,None,j,1,0.47917372699885163,m,19,mingda_green_red,2020_Aug_20_1243,DualColor_green_red,2020.1.2,59.81961610132346,
35,0,35,0,256.0777810600048,None,f,1,0.6198257110008853,m,19,mingda_green_red,2020_Aug_20_1243,DualColor_green_red,2020.1.2,59.81961610132346,
36,0,36,0,258.5444287920036,None,f,1,0.38808052700187545,m,19,mingda_green_red,2020_Aug_20_1243,DualColor_green_red,2020.1.2,59.81961610132346,
37,0,37,0,260.5782210220059,None,f,1,0.3043550100046559,m,19,mingda_green_red,2020_Aug_20_1243,DualColor_green_red,2020.1.2,59.81961610132346,
38,0,38,0,262.76120969300246,None,j,1,0.3981592590062064,m,19,mingda_green_red,2020_Aug_20_1243,DualColor_green_red,2020.1.2,59.81961610132346,
39,0,39,0,264.8943996780072,None,j,1,0.32186790899868356,m,19,mingda_green_red,2020_Aug_20_1243,DualColor_green_red,2020.1.2,59.81961610132346,
40,0,40,0,267.07758794000256,None,f,1,0.35980367800220847,m,19,mingda_green_red,2020_Aug_20_1243,DualColor_green_red,2020.1.2,59.81961610132346,
41,0,41,0,269.3113903640042,None,j,1,0.3657179720030399,m,19,mingda_green_red,2020_Aug_20_1243,DualColor_green_red,2020.1.2,59.81961610132346,
42,0,42,0,271.47752515800676,None,j,1,0.31666552100068657,m,19,mingda_green_red,2020_Aug_20_1243,DualColor_green_red,2020.1.2,59.81961610132346,
43,0,43,0,273.54412781400606,None,j,1,0.3041427619973547,m,19,mingda_green_red,2020_Aug_20_1243,DualColor_green_red,2020.1.2,59.81961610132346,
44,0,44,0,275.54412148500705,None,j,1,0.3135178349984926,m,19,mingda_green_red,2020_Aug_20_1243,DualColor_green_red,2020.1.2,59.81961610132346,
45,0,45,0,277.59387556700676,None,j,1,0.28237616999831516,m,19,mingda_green_red,2020_Aug_20_1243,DualColor_green_red,2020.1.2,59.81961610132346,
46,0,46,0,279.74406765700405,None,j,1,0.2665383350031334,m,19,mingda_green_red,2020_Aug_20_1243,DualColor_green_red,2020.1.2,59.81961610132346,
47,0,47,0,281.86096362100216,None,f,1,0.34654566300014267,m,19,mingda_green_red,2020_Aug_20_1243,DualColor_green_red,2020.1.2,59.81961610132346,
48,0,48,0,284.1109407640033,None,j,1,0.3124841819953872,m,19,mingda_green_red,2020_Aug_20_1243,DualColor_green_red,2020.1.2,59.81961610132346,
49,0,49,0,286.377559973007,None,j,1,0.3318251680029789,m,19,mingda_green_red,2020_Aug_20_1243,DualColor_green_red,2020.1.2,59.81961610132346,
50,0,50,0,288.6439337210031,None,j,1,0.37753229499503504,m,19,mingda_green_red,2020_Aug_20_1243,DualColor_green_red,2020.1.2,59.81961610132346,
51,0,51,0,290.64422814499994,None,j,1,0.3429633609994198,m,19,mingda_green_red,2020_Aug_20_1243,DualColor_green_red,2020.1.2,59.81961610132346,
52,0,52,0,292.52739472100075,None,f,1,0.41701130499859573,m,19,mingda_green_red,2020_Aug_20_1243,DualColor_green_red,2020.1.2,59.81961610132346,
53,0,53,0,294.7604751760009,None,f,1,0.40940794000198366,m,19,mingda_green_red,2020_Aug_20_1243,DualColor_green_red,2020.1.2,59.81961610132346,
54,0,54,0,296.77737273000093,None,j,1,0.37661553300131345,m,19,mingda_green_red,2020_Aug_20_1243,DualColor_green_red,2020.1.2,59.81961610132346,
55,0,55,0,298.7772877020034,None,f,1,0.3745241110009374,m,19,mingda_green_red,2020_Aug_20_1243,DualColor_green_red,2020.1.2,59.81961610132346,
56,0,56,0,300.77712313500524,None,j,1,0.29251495099742897,m,19,mingda_green_red,2020_Aug_20_1243,DualColor_green_red,2020.1.2,59.81961610132346,
57,0,57,0,302.86020540000027,None,f,1,0.29048945300019113,m,19,mingda_green_red,2020_Aug_20_1243,DualColor_green_red,2020.1.2,59.81961610132346,
58,0,58,0,305.0765588980066,None,j,1,0.31518276399583556,m,19,mingda_green_red,2020_Aug_20_1243,DualColor_green_red,2020.1.2,59.81961610132346,
59,0,59,0,307.12651968400314,None,j,1,0.35303039100108435,m,19,mingda_green_red,2020_Aug_20_1243,DualColor_green_red,2020.1.2,59.81961610132346,
60,0,60,0,309.44360450400563,None,j,1,0.38174202099617105,m,19,mingda_green_red,2020_Aug_20_1243,DualColor_green_red,2020.1.2,59.81961610132346,
61,0,61,0,311.37644445400656,None,j,1,0.3319788540029549,m,19,mingda_green_red,2020_Aug_20_1243,DualColor_green_red,2020.1.2,59.81961610132346,
62,0,62,0,313.2264237240015,None,f,1,0.4458759870030917,m,19,mingda_green_red,2020_Aug_20_1243,DualColor_green_red,2020.1.2,59.81961610132346,
63,0,63,0,315.66025911400357,None,j,1,0.34803394300251966,m,19,mingda_green_red,2020_Aug_20_1243,DualColor_green_red,2020.1.2,59.81961610132346,
64,0,64,0,317.95974368300085,None,f,1,0.3309158970005228,m,19,mingda_green_red,2020_Aug_20_1243,DualColor_green_red,2020.1.2,59.81961610132346,
65,0,65,0,320.0095518320013,None,f,1,0.37444012600462884,m,19,mingda_green_red,2020_Aug_20_1243,DualColor_green_red,2020.1.2,59.81961610132346,
66,0,66,0,322.34276680400217,None,f,1,0.27726986999914516,m,19,mingda_green_red,2020_Aug_20_1243,DualColor_green_red,2020.1.2,59.81961610132346,
67,0,67,0,324.34273903600115,None,f,1,0.27299454599415185,m,19,mingda_green_red,2020_Aug_20_1243,DualColor_green_red,2020.1.2,59.81961610132346,
68,0,68,0,326.60933913300687,None,f,1,0.2714856669990695,m,19,mingda_green_red,2020_Aug_20_1243,DualColor_green_red,2020.1.2,59.81961610132346,
69,0,69,0,328.47595189400454,None,j,1,0.3968430369932321,m,19,mingda_green_red,2020_Aug_20_1243,DualColor_green_red,2020.1.2,59.81961610132346,
70,0,70,0,330.72584690700023,None,j,1,0.28781436500139534,m,19,mingda_green_red,2020_Aug_20_1243,DualColor_green_red,2020.1.2,59.81961610132346,
71,0,71,0,332.9928339370017,None,j,1,0.47863408899866045,m,19,mingda_green_red,2020_Aug_20_1243,DualColor_green_red,2020.1.2,59.81961610132346,
72,0,72,0,335.17631699600315,None,j,1,0.31426235099934274,m,19,mingda_green_red,2020_Aug_20_1243,DualColor_green_red,2020.1.2,59.81961610132346,
73,0,73,0,337.14263158900576,None,j,1,0.45563200899778167,m,19,mingda_green_red,2020_Aug_20_1243,DualColor_green_red,2020.1.2,59.81961610132346,
74,0,74,0,339.5095750460023,None,f,1,0.36974394699791446,m,19,mingda_green_red,2020_Aug_20_1243,DualColor_green_red,2020.1.2,59.81961610132346,
75,0,75,0,341.75950338600524,None,f,1,0.38878488399495836,m,19,mingda_green_red,2020_Aug_20_1243,DualColor_green_red,2020.1.2,59.81961610132346,
76,0,76,0,343.7593087730056,None,f,1,0.2699046729976544,m,19,mingda_green_red,2020_Aug_20_1243,DualColor_green_red,2020.1.2,59.81961610132346,
77,0,77,0,345.72585664500366,None,j,1,0.3561433360009687,m,19,mingda_green_red,2020_Aug_20_1243,DualColor_green_red,2020.1.2,59.81961610132346,
78,0,78,0,347.64219281600526,None,j,1,0.3748035710013937,m,19,mingda_green_red,2020_Aug_20_1243,DualColor_green_red,2020.1.2,59.81961610132346,
79,0,79,0,349.64212215900625,None,f,1,0.31687021700054174,m,19,mingda_green_red,2020_Aug_20_1243,DualColor_green_red,2020.1.2,59.81961610132346,
80,0,80,0,351.7586855640038,None,f,1,0.28622506099782186,m,19,mingda_green_red,2020_Aug_20_1243,DualColor_green_red,2020.1.2,59.81961610132346,
81,0,81,0,353.67581533600605,None,f,1,0.2764585410041036,m,19,mingda_green_red,2020_Aug_20_1243,DualColor_green_red,2020.1.2,59.81961610132346,
82,0,82,0,355.75863937300164,None,f,1,0.2699945850035874,m,19,mingda_green_red,2020_Aug_20_1243,DualColor_green_red,2020.1.2,59.81961610132346,
83,0,83,0,357.70856615800585,None,j,1,0.35092067000368843,m,19,mingda_green_red,2020_Aug_20_1243,DualColor_green_red,2020.1.2,59.81961610132346,
84,0,84,0,359.9085786690048,None,f,1,0.34275173700007144,m,19,mingda_green_red,2020_Aug_20_1243,DualColor_green_red,2020.1.2,59.81961610132346,
85,0,85,0,362.20881006700074,None,f,1,0.35465529000066454,m,19,mingda_green_red,2020_Aug_20_1243,DualColor_green_red,2020.1.2,59.81961610132346,
86,0,86,0,364.2083360540055,None,j,1,0.34112221299437806,m,19,mingda_green_red,2020_Aug_20_1243,DualColor_green_red,2020.1.2,59.81961610132346,
87,0,87,0,366.3752237830049,None,f,1,0.33600641600060044,m,19,mingda_green_red,2020_Aug_20_1243,DualColor_green_red,2020.1.2,59.81961610132346,
88,0,88,0,368.69165300500026,None,j,1,0.33861635899666,m,19,mingda_green_red,2020_Aug_20_1243,DualColor_green_red,2020.1.2,59.81961610132346,
89,0,89,0,371.0247306500023,None,f,1,0.30539448199851904,m,19,mingda_green_red,2020_Aug_20_1243,DualColor_green_red,2020.1.2,59.81961610132346,
90,0,90,0,373.17522708500474,None,j,1,0.3707947619986953,m,19,mingda_green_red,2020_Aug_20_1243,DualColor_green_red,2020.1.2,59.81961610132346,
91,0,91,0,375.52498030100105,None,f,1,0.38785613100480987,m,19,mingda_green_red,2020_Aug_20_1243,DualColor_green_red,2020.1.2,59.81961610132346,
92,0,92,0,377.8918666220052,None,j,1,0.4758996140008094,m,19,mingda_green_red,2020_Aug_20_1243,DualColor_green_red,2020.1.2,59.81961610132346,
93,0,93,0,380.225121139003,None,j,1,0.4076638559999992,m,19,mingda_green_red,2020_Aug_20_1243,DualColor_green_red,2020.1.2,59.81961610132346,
94,0,94,0,382.4917436550022,None,f,1,0.3427994209996541,m,19,mingda_green_red,2020_Aug_20_1243,DualColor_green_red,2020.1.2,59.81961610132346,
95,0,95,0,384.7081754500032,None,f,1,0.33524199800012866,m,19,mingda_green_red,2020_Aug_20_1243,DualColor_green_red,2020.1.2,59.81961610132346,
96,0,96,0,386.72450698200555,None,f,1,0.32094992299971636,m,19,mingda_green_red,2020_Aug_20_1243,DualColor_green_red,2020.1.2,59.81961610132346,
97,0,97,0,388.67452718100685,None,f,1,0.2658601950024604,m,19,mingda_green_red,2020_Aug_20_1243,DualColor_green_red,2020.1.2,59.81961610132346,
98,0,98,0,390.82491494600254,None,j,1,0.4393380960027571,m,19,mingda_green_red,2020_Aug_20_1243,DualColor_green_red,2020.1.2,59.81961610132346,
99,0,99,0,393.1746068440043,None,j,1,0.3529957979990286,m,19,mingda_green_red,2020_Aug_20_1243,DualColor_green_red,2020.1.2,59.81961610132346,
