trials.thisRepN,trials.thisTrialN,trials.thisN,trials.thisIndex,polygon_2.started,polygon_2.stopped,key_resp_3.keys,key_resp_3.corr,key_resp_3.rt,gender (m/f),age,participant,date,expName,psychopyVersion,frameRate,
0,0,0,0,75.29022316000191,None,j,1,0.41730108100455254,m,19,mingda_yellow_green,2020_Aug_20_1253,DualColor_yellow_green,2020.1.2,59.84545426003377,
1,0,1,0,77.52370403399982,None,j,1,0.30665659200167283,m,19,mingda_yellow_green,2020_Aug_20_1253,DualColor_yellow_green,2020.1.2,59.84545426003377,
2,0,2,0,79.73984819100588,None,j,1,0.2685859019984491,m,19,mingda_yellow_green,2020_Aug_20_1253,DualColor_yellow_green,2020.1.2,59.84545426003377,
3,0,3,0,81.53971440299938,None,f,1,0.3134338529998786,m,19,mingda_yellow_green,2020_Aug_20_1253,DualColor_yellow_green,2020.1.2,59.84545426003377,
4,0,4,0,83.70655680200434,None,f,1,0.26242939999792725,m,19,mingda_yellow_green,2020_Aug_20_1253,DualColor_yellow_green,2020.1.2,59.84545426003377,
5,0,5,0,85.48963955300133,None,f,1,0.2994962890006718,m,19,mingda_yellow_green,2020_Aug_20_1253,DualColor_yellow_green,2020.1.2,59.84545426003377,
6,0,6,0,87.30652802300028,None,f,1,0.2766887760008103,m,19,mingda_yellow_green,2020_Aug_20_1253,DualColor_yellow_green,2020.1.2,59.84545426003377,
7,0,7,0,89.57296293599939,None,f,0,0.2386350790038705,m,19,mingda_yellow_green,2020_Aug_20_1253,DualColor_yellow_green,2020.1.2,59.84545426003377,
8,0,8,0,91.72302182600106,None,j,1,0.4425836939990404,m,19,mingda_yellow_green,2020_Aug_20_1253,DualColor_yellow_green,2020.1.2,59.84545426003377,
9,0,9,0,94.17296274100227,None,f,1,0.41668007599946577,m,19,mingda_yellow_green,2020_Aug_20_1253,DualColor_yellow_green,2020.1.2,59.84545426003377,
10,0,10,0,96.48944747399946,None,f,1,0.33404691299801925,m,19,mingda_yellow_green,2020_Aug_20_1253,DualColor_yellow_green,2020.1.2,59.84545426003377,
11,0,11,0,98.73920101200201,None,f,1,0.32138722100353334,m,19,mingda_yellow_green,2020_Aug_20_1253,DualColor_yellow_green,2020.1.2,59.84545426003377,
12,0,12,0,101.05578973299998,None,f,1,0.38565049700264353,m,19,mingda_yellow_green,2020_Aug_20_1253,DualColor_yellow_green,2020.1.2,59.84545426003377,
13,0,13,0,103.28957247500512,None,j,1,0.36774000200239243,m,19,mingda_yellow_green,2020_Aug_20_1253,DualColor_yellow_green,2020.1.2,59.84545426003377,
14,0,14,0,105.27255934099958,None,j,1,0.3068656120012747,m,19,mingda_yellow_green,2020_Aug_20_1253,DualColor_yellow_green,2020.1.2,59.84545426003377,
15,0,15,0,107.15587637499993,None,j,1,0.32712173699837876,m,19,mingda_yellow_green,2020_Aug_20_1253,DualColor_yellow_green,2020.1.2,59.84545426003377,
16,0,16,0,108.98962370400113,None,f,1,0.4059167990053538,m,19,mingda_yellow_green,2020_Aug_20_1253,DualColor_yellow_green,2020.1.2,59.84545426003377,
17,0,17,0,110.92282719700597,None,j,1,0.3693144069984555,m,19,mingda_yellow_green,2020_Aug_20_1253,DualColor_yellow_green,2020.1.2,59.84545426003377,
18,0,18,0,113.23893553500238,None,f,1,0.3915244989984785,m,19,mingda_yellow_green,2020_Aug_20_1253,DualColor_yellow_green,2020.1.2,59.84545426003377,
19,0,19,0,115.27266644100018,None,j,1,0.3803629530011676,m,19,mingda_yellow_green,2020_Aug_20_1253,DualColor_yellow_green,2020.1.2,59.84545426003377,
20,0,20,0,117.42188932600402,None,j,1,0.3949935480050044,m,19,mingda_yellow_green,2020_Aug_20_1253,DualColor_yellow_green,2020.1.2,59.84545426003377,
21,0,21,0,119.55552280900156,None,f,1,0.41637737599376123,m,19,mingda_yellow_green,2020_Aug_20_1253,DualColor_yellow_green,2020.1.2,59.84545426003377,
22,0,22,0,121.53929633700318,None,j,1,0.4025123430037638,m,19,mingda_yellow_green,2020_Aug_20_1253,DualColor_yellow_green,2020.1.2,59.84545426003377,
23,0,23,0,123.9225428800055,None,j,1,0.3793863609971595,m,19,mingda_yellow_green,2020_Aug_20_1253,DualColor_yellow_green,2020.1.2,59.84545426003377,
24,0,24,0,126.23887372700119,None,f,1,0.4483460319970618,m,19,mingda_yellow_green,2020_Aug_20_1253,DualColor_yellow_green,2020.1.2,59.84545426003377,
25,0,25,0,128.5890960310062,None,j,1,0.4224443959974451,m,19,mingda_yellow_green,2020_Aug_20_1253,DualColor_yellow_green,2020.1.2,59.84545426003377,
26,0,26,0,130.7552366470045,None,f,1,0.3670232570002554,m,19,mingda_yellow_green,2020_Aug_20_1253,DualColor_yellow_green,2020.1.2,59.84545426003377,
27,0,27,0,132.93852582399995,None,j,1,0.43858479500340763,m,19,mingda_yellow_green,2020_Aug_20_1253,DualColor_yellow_green,2020.1.2,59.84545426003377,
28,0,28,0,135.1553946740023,None,f,1,0.3189019540004665,m,19,mingda_yellow_green,2020_Aug_20_1253,DualColor_yellow_green,2020.1.2,59.84545426003377,
29,0,29,0,137.25554493000527,None,j,1,0.33161950200155843,m,19,mingda_yellow_green,2020_Aug_20_1253,DualColor_yellow_green,2020.1.2,59.84545426003377,
30,0,30,0,139.4886161060058,None,j,1,0.3475139419970219,m,19,mingda_yellow_green,2020_Aug_20_1253,DualColor_yellow_green,2020.1.2,59.84545426003377,
31,0,31,0,141.47150949200295,None,f,1,0.3658906759956153,m,19,mingda_yellow_green,2020_Aug_20_1253,DualColor_yellow_green,2020.1.2,59.84545426003377,
32,0,32,0,143.65468603100453,None,j,1,0.355332681996515,m,19,mingda_yellow_green,2020_Aug_20_1253,DualColor_yellow_green,2020.1.2,59.84545426003377,
33,0,33,0,145.6048095120059,None,j,1,0.44695093399786856,m,19,mingda_yellow_green,2020_Aug_20_1253,DualColor_yellow_green,2020.1.2,59.84545426003377,
34,0,34,0,147.70526168200013,None,f,1,0.5902497130009579,m,19,mingda_yellow_green,2020_Aug_20_1253,DualColor_yellow_green,2020.1.2,59.84545426003377,
35,0,35,0,150.0713284060039,None,f,1,0.5781898330023978,m,19,mingda_yellow_green,2020_Aug_20_1253,DualColor_yellow_green,2020.1.2,59.84545426003377,
36,0,36,0,152.30515203899995,None,j,1,0.3966182040021522,m,19,mingda_yellow_green,2020_Aug_20_1253,DualColor_yellow_green,2020.1.2,59.84545426003377,
37,0,37,0,154.57105144100206,None,f,1,0.5354208119970281,m,19,mingda_yellow_green,2020_Aug_20_1253,DualColor_yellow_green,2020.1.2,59.84545426003377,
38,0,38,0,157.03774321899982,None,f,1,0.442839791001461,m,19,mingda_yellow_green,2020_Aug_20_1253,DualColor_yellow_green,2020.1.2,59.84545426003377,
39,0,39,0,159.28790978799952,None,f,1,0.4722877640015213,m,19,mingda_yellow_green,2020_Aug_20_1253,DualColor_yellow_green,2020.1.2,59.84545426003377,
40,0,40,0,161.4377209680024,None,f,1,0.31843496399960713,m,19,mingda_yellow_green,2020_Aug_20_1253,DualColor_yellow_green,2020.1.2,59.84545426003377,
41,0,41,0,163.57088614700479,None,f,1,0.32626264399732463,m,19,mingda_yellow_green,2020_Aug_20_1253,DualColor_yellow_green,2020.1.2,59.84545426003377,
42,0,42,0,165.40447771700565,None,f,1,0.39843631200346863,m,19,mingda_yellow_green,2020_Aug_20_1253,DualColor_yellow_green,2020.1.2,59.84545426003377,
43,0,43,0,167.32078752200323,None,j,1,0.31913258300482994,m,19,mingda_yellow_green,2020_Aug_20_1253,DualColor_yellow_green,2020.1.2,59.84545426003377,
44,0,44,0,169.47088539200195,None,f,1,0.4011671740008751,m,19,mingda_yellow_green,2020_Aug_20_1253,DualColor_yellow_green,2020.1.2,59.84545426003377,
45,0,45,0,171.7374812660055,None,j,1,0.4293084750024718,m,19,mingda_yellow_green,2020_Aug_20_1253,DualColor_yellow_green,2020.1.2,59.84545426003377,
46,0,46,0,173.9541895500006,None,f,1,0.3968360599974403,m,19,mingda_yellow_green,2020_Aug_20_1253,DualColor_yellow_green,2020.1.2,59.84545426003377,
47,0,47,0,175.9044725019994,None,j,1,0.5325824899991858,m,19,mingda_yellow_green,2020_Aug_20_1253,DualColor_yellow_green,2020.1.2,59.84545426003377,
48,0,48,0,178.3204524890025,None,j,1,0.5121082009936799,m,19,mingda_yellow_green,2020_Aug_20_1253,DualColor_yellow_green,2020.1.2,59.84545426003377,
49,0,49,0,180.80426237600477,None,j,1,0.5522653600055492,m,19,mingda_yellow_green,2020_Aug_20_1253,DualColor_yellow_green,2020.1.2,59.84545426003377,
50,0,50,0,183.02067392200115,None,j,1,0.5034904620042653,m,19,mingda_yellow_green,2020_Aug_20_1253,DualColor_yellow_green,2020.1.2,59.84545426003377,
51,0,51,0,185.42039585300518,None,j,1,0.36852850500144996,m,19,mingda_yellow_green,2020_Aug_20_1253,DualColor_yellow_green,2020.1.2,59.84545426003377,
52,0,52,0,187.55394338900078,None,j,1,0.3876921489936649,m,19,mingda_yellow_green,2020_Aug_20_1253,DualColor_yellow_green,2020.1.2,59.84545426003377,
53,0,53,0,189.6202345720012,None,j,1,0.31763305899949046,m,19,mingda_yellow_green,2020_Aug_20_1253,DualColor_yellow_green,2020.1.2,59.84545426003377,
54,0,54,0,191.93671323700255,None,j,1,0.3131945480054128,m,19,mingda_yellow_green,2020_Aug_20_1253,DualColor_yellow_green,2020.1.2,59.84545426003377,
55,0,55,0,194.1534221050024,None,j,1,0.29499324900098145,m,19,mingda_yellow_green,2020_Aug_20_1253,DualColor_yellow_green,2020.1.2,59.84545426003377,
56,0,56,0,196.03687694499968,None,j,1,0.29967809899972053,m,19,mingda_yellow_green,2020_Aug_20_1253,DualColor_yellow_green,2020.1.2,59.84545426003377,
57,0,57,0,198.15347803100303,None,j,1,0.31316897299984703,m,19,mingda_yellow_green,2020_Aug_20_1253,DualColor_yellow_green,2020.1.2,59.84545426003377,
58,0,58,0,200.37063241700525,None,j,1,0.29821270499815,m,19,mingda_yellow_green,2020_Aug_20_1253,DualColor_yellow_green,2020.1.2,59.84545426003377,
59,0,59,0,202.16994758500368,None,f,1,0.43037521700171055,m,19,mingda_yellow_green,2020_Aug_20_1253,DualColor_yellow_green,2020.1.2,59.84545426003377,
60,0,60,0,204.20316539000487,None,j,1,0.45133213799999794,m,19,mingda_yellow_green,2020_Aug_20_1253,DualColor_yellow_green,2020.1.2,59.84545426003377,
61,0,61,0,206.48640131300635,None,f,1,0.39154760199744487,m,19,mingda_yellow_green,2020_Aug_20_1253,DualColor_yellow_green,2020.1.2,59.84545426003377,
62,0,62,0,208.71978479099926,None,j,1,0.3123106610000832,m,19,mingda_yellow_green,2020_Aug_20_1253,DualColor_yellow_green,2020.1.2,59.84545426003377,
63,0,63,0,210.56969407400175,None,j,1,0.4086934000006295,m,19,mingda_yellow_green,2020_Aug_20_1253,DualColor_yellow_green,2020.1.2,59.84545426003377,
64,0,64,0,212.93681310900138,None,j,1,0.3483081860031234,m,19,mingda_yellow_green,2020_Aug_20_1253,DualColor_yellow_green,2020.1.2,59.84545426003377,
65,0,65,0,215.15288623900415,None,f,1,0.37691334600094706,m,19,mingda_yellow_green,2020_Aug_20_1253,DualColor_yellow_green,2020.1.2,59.84545426003377,
66,0,66,0,217.20270621400414,None,j,1,0.39131387900124537,m,19,mingda_yellow_green,2020_Aug_20_1253,DualColor_yellow_green,2020.1.2,59.84545426003377,
67,0,67,0,219.10276459300076,None,f,1,0.44106746000034036,m,19,mingda_yellow_green,2020_Aug_20_1253,DualColor_yellow_green,2020.1.2,59.84545426003377,
68,0,68,0,221.45292121800594,None,f,1,0.40572418500232743,m,19,mingda_yellow_green,2020_Aug_20_1253,DualColor_yellow_green,2020.1.2,59.84545426003377,
69,0,69,0,223.80295627600572,None,j,1,0.4297650110020186,m,19,mingda_yellow_green,2020_Aug_20_1253,DualColor_yellow_green,2020.1.2,59.84545426003377,
70,0,70,0,226.1697518660003,None,f,1,0.43177004600147484,m,19,mingda_yellow_green,2020_Aug_20_1253,DualColor_yellow_green,2020.1.2,59.84545426003377,
71,0,71,0,228.1525983419997,None,f,1,0.2987646039982792,m,19,mingda_yellow_green,2020_Aug_20_1253,DualColor_yellow_green,2020.1.2,59.84545426003377,
72,0,72,0,230.25285074100248,None,j,1,0.3635393309959909,m,19,mingda_yellow_green,2020_Aug_20_1253,DualColor_yellow_green,2020.1.2,59.84545426003377,
73,0,73,0,232.23585919900506,None,j,1,0.27751580699987244,m,19,mingda_yellow_green,2020_Aug_20_1253,DualColor_yellow_green,2020.1.2,59.84545426003377,
74,0,74,0,234.43574084099964,None,j,1,0.34887613099999726,m,19,mingda_yellow_green,2020_Aug_20_1253,DualColor_yellow_green,2020.1.2,59.84545426003377,
75,0,75,0,236.6360332500044,None,f,1,0.5929403650006861,m,19,mingda_yellow_green,2020_Aug_20_1253,DualColor_yellow_green,2020.1.2,59.84545426003377,
76,0,76,0,238.91873106700223,None,f,1,0.32662185299705015,m,19,mingda_yellow_green,2020_Aug_20_1253,DualColor_yellow_green,2020.1.2,59.84545426003377,
77,0,77,0,241.0854490960046,None,f,1,0.3415594170000986,m,19,mingda_yellow_green,2020_Aug_20_1253,DualColor_yellow_green,2020.1.2,59.84545426003377,
78,0,78,0,243.16932288200042,None,j,1,0.33551525399525417,m,19,mingda_yellow_green,2020_Aug_20_1253,DualColor_yellow_green,2020.1.2,59.84545426003377,
79,0,79,0,245.0524771490018,None,j,0,0.31417705200146884,m,19,mingda_yellow_green,2020_Aug_20_1253,DualColor_yellow_green,2020.1.2,59.84545426003377,
80,0,80,0,247.05248860300344,None,j,1,0.3241611539997393,m,19,mingda_yellow_green,2020_Aug_20_1253,DualColor_yellow_green,2020.1.2,59.84545426003377,
81,0,81,0,249.1021677930039,None,j,1,0.4544700710030156,m,19,mingda_yellow_green,2020_Aug_20_1253,DualColor_yellow_green,2020.1.2,59.84545426003377,
82,0,82,0,251.40227149100247,None,j,1,0.34324486200057436,m,19,mingda_yellow_green,2020_Aug_20_1253,DualColor_yellow_green,2020.1.2,59.84545426003377,
83,0,83,0,253.41843937000522,None,j,1,0.3161485160017037,m,19,mingda_yellow_green,2020_Aug_20_1253,DualColor_yellow_green,2020.1.2,59.84545426003377,
84,0,84,0,255.6850494310056,None,j,1,0.28471261400409276,m,19,mingda_yellow_green,2020_Aug_20_1253,DualColor_yellow_green,2020.1.2,59.84545426003377,
85,0,85,0,257.70173436400364,None,f,1,0.502711563000048,m,19,mingda_yellow_green,2020_Aug_20_1253,DualColor_yellow_green,2020.1.2,59.84545426003377,
86,0,86,0,260.10153560600156,None,j,1,0.6019987800027593,m,19,mingda_yellow_green,2020_Aug_20_1253,DualColor_yellow_green,2020.1.2,59.84545426003377,
87,0,87,0,262.53492563799955,None,f,1,0.36528775499755284,m,19,mingda_yellow_green,2020_Aug_20_1253,DualColor_yellow_green,2020.1.2,59.84545426003377,
88,0,88,0,264.4515385440027,None,f,1,0.2887364409980364,m,19,mingda_yellow_green,2020_Aug_20_1253,DualColor_yellow_green,2020.1.2,59.84545426003377,
89,0,89,0,266.7517838890053,None,f,1,0.3475209600001108,m,19,mingda_yellow_green,2020_Aug_20_1253,DualColor_yellow_green,2020.1.2,59.84545426003377,
90,0,90,0,268.8350377540046,None,j,1,0.40972830400278326,m,19,mingda_yellow_green,2020_Aug_20_1253,DualColor_yellow_green,2020.1.2,59.84545426003377,
91,0,91,0,270.90172566600086,None,f,1,0.3843745999984094,m,19,mingda_yellow_green,2020_Aug_20_1253,DualColor_yellow_green,2020.1.2,59.84545426003377,
92,0,92,0,272.967998361004,None,j,1,0.4242513819990563,m,19,mingda_yellow_green,2020_Aug_20_1253,DualColor_yellow_green,2020.1.2,59.84545426003377,
93,0,93,0,275.0846287550012,None,j,1,0.44488700999499997,m,19,mingda_yellow_green,2020_Aug_20_1253,DualColor_yellow_green,2020.1.2,59.84545426003377,
94,0,94,0,277.3512483459999,None,j,1,0.34035187699919334,m,19,mingda_yellow_green,2020_Aug_20_1253,DualColor_yellow_green,2020.1.2,59.84545426003377,
95,0,95,0,279.3182520410046,None,f,1,0.4962049039968406,m,19,mingda_yellow_green,2020_Aug_20_1253,DualColor_yellow_green,2020.1.2,59.84545426003377,
96,0,96,0,281.3682516980043,None,f,1,0.427900338996551,m,19,mingda_yellow_green,2020_Aug_20_1253,DualColor_yellow_green,2020.1.2,59.84545426003377,
97,0,97,0,283.6009472190053,None,j,1,0.36428867900394835,m,19,mingda_yellow_green,2020_Aug_20_1253,DualColor_yellow_green,2020.1.2,59.84545426003377,
98,0,98,0,285.48409381600504,None,f,1,0.3959376569982851,m,19,mingda_yellow_green,2020_Aug_20_1253,DualColor_yellow_green,2020.1.2,59.84545426003377,
99,0,99,0,287.86754801100324,None,f,1,0.3350928420040873,m,19,mingda_yellow_green,2020_Aug_20_1253,DualColor_yellow_green,2020.1.2,59.84545426003377,
