trials.thisRepN,trials.thisTrialN,trials.thisN,trials.thisIndex,polygon_2.started,polygon_2.stopped,key_resp_3.keys,key_resp_3.corr,key_resp_3.rt,gender (m/f),age,participant,date,expName,psychopyVersion,frameRate,
0,0,0,0,873.9905503049958,None,b,1,0.2913965269981418,m,19,mingda_blue,2020_Aug_20_1111,SingleColor_blue,2020.1.3,60.04997959759319,
1,0,1,0,875.9568731459949,None,b,1,0.2290380179983913,m,19,mingda_blue,2020_Aug_20_1111,SingleColor_blue,2020.1.3,60.04997959759319,
2,0,2,0,878.0900203019992,None,b,1,0.2039062960029696,m,19,mingda_blue,2020_Aug_20_1111,SingleColor_blue,2020.1.3,60.04997959759319,
3,0,3,0,879.9572926949986,None,b,1,0.257242669002153,m,19,mingda_blue,2020_Aug_20_1111,SingleColor_blue,2020.1.3,60.04997959759319,
4,0,4,0,881.8401269599999,None,b,1,0.22636455899919383,m,19,mingda_blue,2020_Aug_20_1111,SingleColor_blue,2020.1.3,60.04997959759319,
5,0,5,0,884.0406017719943,None,b,1,0.18098687900055666,m,19,mingda_blue,2020_Aug_20_1111,SingleColor_blue,2020.1.3,60.04997959759319,
6,0,6,0,885.8903528409937,None,b,1,0.22910339499503607,m,19,mingda_blue,2020_Aug_20_1111,SingleColor_blue,2020.1.3,60.04997959759319,
7,0,7,0,887.6232295019945,None,b,1,0.27829926800040994,m,19,mingda_blue,2020_Aug_20_1111,SingleColor_blue,2020.1.3,60.04997959759319,
8,0,8,0,889.6233557399974,None,b,1,0.02589137299946742,m,19,mingda_blue,2020_Aug_20_1111,SingleColor_blue,2020.1.3,60.04997959759319,
9,0,9,0,891.6390934839947,None,b,1,0.4268859479998355,m,19,mingda_blue,2020_Aug_20_1111,SingleColor_blue,2020.1.3,60.04997959759319,
10,0,10,0,893.8732764929955,None,b,1,0.24121075400034897,m,19,mingda_blue,2020_Aug_20_1111,SingleColor_blue,2020.1.3,60.04997959759319,
11,0,11,0,896.023284582996,None,b,1,0.3016976560029434,m,19,mingda_blue,2020_Aug_20_1111,SingleColor_blue,2020.1.3,60.04997959759319,
12,0,12,0,898.2730068429955,None,b,1,0.28305669099790975,m,19,mingda_blue,2020_Aug_20_1111,SingleColor_blue,2020.1.3,60.04997959759319,
13,0,13,0,900.356539264998,None,b,1,0.227165470001637,m,19,mingda_blue,2020_Aug_20_1111,SingleColor_blue,2020.1.3,60.04997959759319,
14,0,14,0,902.5066629279972,None,b,1,0.008086148998700082,m,19,mingda_blue,2020_Aug_20_1111,SingleColor_blue,2020.1.3,60.04997959759319,
15,0,15,0,904.1399322949947,None,b,1,0.26362416300253244,m,19,mingda_blue,2020_Aug_20_1111,SingleColor_blue,2020.1.3,60.04997959759319,
16,0,16,0,906.2895024539976,None,b,1,0.24903192900092108,m,19,mingda_blue,2020_Aug_20_1111,SingleColor_blue,2020.1.3,60.04997959759319,
17,0,17,0,908.1400591700003,None,b,1,0.2814803280052729,m,19,mingda_blue,2020_Aug_20_1111,SingleColor_blue,2020.1.3,60.04997959759319,
18,0,18,0,910.1560401399984,None,b,1,0.18661376299860422,m,19,mingda_blue,2020_Aug_20_1111,SingleColor_blue,2020.1.3,60.04997959759319,
19,0,19,0,912.2394667269982,None,b,1,0.216973466995114,m,19,mingda_blue,2020_Aug_20_1111,SingleColor_blue,2020.1.3,60.04997959759319,
20,0,20,0,914.2732259669938,None,b,1,0.26728128799732076,m,19,mingda_blue,2020_Aug_20_1111,SingleColor_blue,2020.1.3,60.04997959759319,
21,0,21,0,916.3227790709934,None,b,1,0.2497711989999516,m,19,mingda_blue,2020_Aug_20_1111,SingleColor_blue,2020.1.3,60.04997959759319,
22,0,22,0,918.2559857099986,None,b,1,0.30110118300217437,m,19,mingda_blue,2020_Aug_20_1111,SingleColor_blue,2020.1.3,60.04997959759319,
23,0,23,0,920.4897367579979,None,b,1,0.19916069800092373,m,19,mingda_blue,2020_Aug_20_1111,SingleColor_blue,2020.1.3,60.04997959759319,
24,0,24,0,922.3395484369976,None,b,1,0.2806395510051516,m,19,mingda_blue,2020_Aug_20_1111,SingleColor_blue,2020.1.3,60.04997959759319,
25,0,25,0,924.5224856549976,None,b,1,0.20649724699615035,m,19,mingda_blue,2020_Aug_20_1111,SingleColor_blue,2020.1.3,60.04997959759319,
26,0,26,0,926.5393410309989,None,b,1,0.25875309700495563,m,19,mingda_blue,2020_Aug_20_1111,SingleColor_blue,2020.1.3,60.04997959759319,
27,0,27,0,928.6227309359965,None,b,1,0.22789255200041225,m,19,mingda_blue,2020_Aug_20_1111,SingleColor_blue,2020.1.3,60.04997959759319,
28,0,28,0,930.6057299489985,None,b,1,0.2349332309968304,m,19,mingda_blue,2020_Aug_20_1111,SingleColor_blue,2020.1.3,60.04997959759319,
29,0,29,0,932.6890654019953,None,b,1,0.19533095599763328,m,19,mingda_blue,2020_Aug_20_1111,SingleColor_blue,2020.1.3,60.04997959759319,
30,0,30,0,934.5060005859996,None,b,1,0.2565500519995112,m,19,mingda_blue,2020_Aug_20_1111,SingleColor_blue,2020.1.3,60.04997959759319,
31,0,31,0,936.472156400996,None,b,1,0.21624514299764996,m,19,mingda_blue,2020_Aug_20_1111,SingleColor_blue,2020.1.3,60.04997959759319,
32,0,32,0,938.4888276739948,None,b,1,0.24220469400461297,m,19,mingda_blue,2020_Aug_20_1111,SingleColor_blue,2020.1.3,60.04997959759319,
33,0,33,0,940.2723059929995,None,b,1,0.2939711860017269,m,19,mingda_blue,2020_Aug_20_1111,SingleColor_blue,2020.1.3,60.04997959759319,
34,0,34,0,942.0724286609984,None,b,1,0.25493823299621,m,19,mingda_blue,2020_Aug_20_1111,SingleColor_blue,2020.1.3,60.04997959759319,
35,0,35,0,943.8553570089935,None,b,1,0.31969370099977823,m,19,mingda_blue,2020_Aug_20_1111,SingleColor_blue,2020.1.3,60.04997959759319,
36,0,36,0,945.939037047996,None,b,1,0.20241141600126866,m,19,mingda_blue,2020_Aug_20_1111,SingleColor_blue,2020.1.3,60.04997959759319,
37,0,37,0,947.9384380669944,None,b,1,0.21455348300514743,m,19,mingda_blue,2020_Aug_20_1111,SingleColor_blue,2020.1.3,60.04997959759319,
38,0,38,0,950.0550795789968,None,b,1,0.2165806330012856,m,19,mingda_blue,2020_Aug_20_1111,SingleColor_blue,2020.1.3,60.04997959759319,
39,0,39,0,952.2383674800003,None,b,1,0.2512958270017407,m,19,mingda_blue,2020_Aug_20_1111,SingleColor_blue,2020.1.3,60.04997959759319,
40,0,40,0,954.2382020549994,None,b,1,0.2476381059968844,m,19,mingda_blue,2020_Aug_20_1111,SingleColor_blue,2020.1.3,60.04997959759319,
41,0,41,0,956.2886306049986,None,b,1,0.15701429099863162,m,19,mingda_blue,2020_Aug_20_1111,SingleColor_blue,2020.1.3,60.04997959759319,
42,0,42,0,958.1881575679945,None,b,1,0.2634676949965069,m,19,mingda_blue,2020_Aug_20_1111,SingleColor_blue,2020.1.3,60.04997959759319,
43,0,43,0,959.9719759159998,None,b,1,0.3115627890001633,m,19,mingda_blue,2020_Aug_20_1111,SingleColor_blue,2020.1.3,60.04997959759319,
44,0,44,0,962.0047600399994,None,b,1,0.20742618400254287,m,19,mingda_blue,2020_Aug_20_1111,SingleColor_blue,2020.1.3,60.04997959759319,
45,0,45,0,963.7880780529958,None,b,1,0.24820981900120387,m,19,mingda_blue,2020_Aug_20_1111,SingleColor_blue,2020.1.3,60.04997959759319,
46,0,46,0,965.7715536249962,None,b,1,0.1835549380048178,m,19,mingda_blue,2020_Aug_20_1111,SingleColor_blue,2020.1.3,60.04997959759319,
47,0,47,0,967.4877651479983,None,b,1,0.28043383200565586,m,19,mingda_blue,2020_Aug_20_1111,SingleColor_blue,2020.1.3,60.04997959759319,
48,0,48,0,969.4209476089964,None,b,1,0.20309412800270366,m,19,mingda_blue,2020_Aug_20_1111,SingleColor_blue,2020.1.3,60.04997959759319,
49,0,49,0,971.2041030309992,None,b,1,0.25389514899870846,m,19,mingda_blue,2020_Aug_20_1111,SingleColor_blue,2020.1.3,60.04997959759319,
