trials.thisRepN,trials.thisTrialN,trials.thisN,trials.thisIndex,polygon_2.started,polygon_2.stopped,key_resp_3.keys,key_resp_3.corr,key_resp_3.rt,gender (m/f),age,participant,date,expName,psychopyVersion,frameRate,
0,0,0,0,21.889098233004916,None,b,1,0.27579273100127466,m,19,mingda_green,2020_Aug_20_1120,SingleColor_green,2020.1.3,60.08453774258254,
1,0,1,0,23.772349803999532,None,b,1,0.28545318500255235,m,19,mingda_green,2020_Aug_20_1120,SingleColor_green,2020.1.3,60.08453774258254,
2,0,2,0,25.772502488005557,None,b,1,0.2531879680027487,m,19,mingda_green,2020_Aug_20_1120,SingleColor_green,2020.1.3,60.08453774258254,
3,0,3,0,27.805825595001807,None,b,1,0.2107330560029368,m,19,mingda_green,2020_Aug_20_1120,SingleColor_green,2020.1.3,60.08453774258254,
4,0,4,0,29.688752890004253,None,b,1,0.260915789003775,m,19,mingda_green,2020_Aug_20_1120,SingleColor_green,2020.1.3,60.08453774258254,
5,0,5,0,31.489414194002165,None,b,1,0.2523158319963841,m,19,mingda_green,2020_Aug_20_1120,SingleColor_green,2020.1.3,60.08453774258254,
6,0,6,0,33.489308650001476,None,b,1,0.21309477500471985,m,19,mingda_green,2020_Aug_20_1120,SingleColor_green,2020.1.3,60.08453774258254,
7,0,7,0,35.42232071000035,None,b,1,0.40792377199977636,m,19,mingda_green,2020_Aug_20_1120,SingleColor_green,2020.1.3,60.08453774258254,
8,0,8,0,37.555517134002,None,b,1,0.4734149660071125,m,19,mingda_green,2020_Aug_20_1120,SingleColor_green,2020.1.3,60.08453774258254,
9,0,9,0,39.805423703001,None,b,1,0.3359820559999207,m,19,mingda_green,2020_Aug_20_1120,SingleColor_green,2020.1.3,60.08453774258254,
10,0,10,0,42.12204131500039,None,b,1,0.3810614140020334,m,19,mingda_green,2020_Aug_20_1120,SingleColor_green,2020.1.3,60.08453774258254,
11,0,11,0,44.42191748299956,None,b,1,0.21414176300459076,m,19,mingda_green,2020_Aug_20_1120,SingleColor_green,2020.1.3,60.08453774258254,
12,0,12,0,46.505281183999614,None,b,1,0.1698161020030966,m,19,mingda_green,2020_Aug_20_1120,SingleColor_green,2020.1.3,60.08453774258254,
13,0,13,0,48.188584604002244,None,b,1,0.27438609600358177,m,19,mingda_green,2020_Aug_20_1120,SingleColor_green,2020.1.3,60.08453774258254,
14,0,14,0,50.13852020100603,None,b,1,0.1943718490001629,m,19,mingda_green,2020_Aug_20_1120,SingleColor_green,2020.1.3,60.08453774258254,
15,0,15,0,52.08869816600054,None,b,1,0.19187921899720095,m,19,mingda_green,2020_Aug_20_1120,SingleColor_green,2020.1.3,60.08453774258254,
16,0,16,0,54.03857467399939,None,b,1,0.1710171380036627,m,19,mingda_green,2020_Aug_20_1120,SingleColor_green,2020.1.3,60.08453774258254,
17,0,17,0,55.77176897100435,None,b,1,0.2586955339938868,m,19,mingda_green,2020_Aug_20_1120,SingleColor_green,2020.1.3,60.08453774258254,
18,0,18,0,57.95498461800162,None,b,1,0.1847144209968974,m,19,mingda_green,2020_Aug_20_1120,SingleColor_green,2020.1.3,60.08453774258254,
19,0,19,0,59.95478731700132,None,b,1,0.2106980000025942,m,19,mingda_green,2020_Aug_20_1120,SingleColor_green,2020.1.3,60.08453774258254,
20,0,20,0,62.07131182200101,None,b,1,0.20795489799638744,m,19,mingda_green,2020_Aug_20_1120,SingleColor_green,2020.1.3,60.08453774258254,
21,0,21,0,63.8380736110048,None,b,1,0.27463818700198317,m,19,mingda_green,2020_Aug_20_1120,SingleColor_green,2020.1.3,60.08453774258254,
22,0,22,0,66.00525327800278,None,b,1,0.11893305199919268,m,19,mingda_green,2020_Aug_20_1120,SingleColor_green,2020.1.3,60.08453774258254,
23,0,23,0,68.03803391200199,None,b,1,0.1590160769992508,m,19,mingda_green,2020_Aug_20_1120,SingleColor_green,2020.1.3,60.08453774258254,
24,0,24,0,69.90458191600192,None,b,1,0.27191675600624876,m,19,mingda_green,2020_Aug_20_1120,SingleColor_green,2020.1.3,60.08453774258254,
25,0,25,0,72.08867263600405,None,b,1,0.1831733759972849,m,19,mingda_green,2020_Aug_20_1120,SingleColor_green,2020.1.3,60.08453774258254,
26,0,26,0,74.00484829299967,None,b,1,0.23590079700079514,m,19,mingda_green,2020_Aug_20_1120,SingleColor_green,2020.1.3,60.08453774258254,
27,0,27,0,75.88782058700599,None,b,1,0.22487628999806475,m,19,mingda_green,2020_Aug_20_1120,SingleColor_green,2020.1.3,60.08453774258254,
28,0,28,0,77.65413487300248,None,b,1,0.24390072399546625,m,19,mingda_green,2020_Aug_20_1120,SingleColor_green,2020.1.3,60.08453774258254,
29,0,29,0,79.77077873300004,None,b,1,0.5587361900034011,m,19,mingda_green,2020_Aug_20_1120,SingleColor_green,2020.1.3,60.08453774258254,
30,0,30,0,81.83758104400476,None,b,1,0.31279932300094515,m,19,mingda_green,2020_Aug_20_1120,SingleColor_green,2020.1.3,60.08453774258254,
31,0,31,0,84.03760697800317,None,b,1,0.21491332400182728,m,19,mingda_green,2020_Aug_20_1120,SingleColor_green,2020.1.3,60.08453774258254,
32,0,32,0,85.80427956399944,None,b,1,0.29716244700102834,m,19,mingda_green,2020_Aug_20_1120,SingleColor_green,2020.1.3,60.08453774258254,
33,0,33,0,87.82081074900634,None,b,1,0.2733414789981907,m,19,mingda_green,2020_Aug_20_1120,SingleColor_green,2020.1.3,60.08453774258254,
34,0,34,0,89.98713487799978,None,b,1,0.2212792909995187,m,19,mingda_green,2020_Aug_20_1120,SingleColor_green,2020.1.3,60.08453774258254,
35,0,35,0,92.0873445640027,None,b,1,0.2571997310005827,m,19,mingda_green,2020_Aug_20_1120,SingleColor_green,2020.1.3,60.08453774258254,
36,0,36,0,93.9539318590032,None,b,1,0.2861209479960962,m,19,mingda_green,2020_Aug_20_1120,SingleColor_green,2020.1.3,60.08453774258254,
37,0,37,0,95.93712366100226,None,b,1,0.26605571000254713,m,19,mingda_green,2020_Aug_20_1120,SingleColor_green,2020.1.3,60.08453774258254,
38,0,38,0,98.1541206260008,None,b,1,0.18007968499296112,m,19,mingda_green,2020_Aug_20_1120,SingleColor_green,2020.1.3,60.08453774258254,
39,0,39,0,99.85400296100124,None,b,1,0.34886411399929784,m,19,mingda_green,2020_Aug_20_1120,SingleColor_green,2020.1.3,60.08453774258254,
40,0,40,0,101.70369471100275,None,b,1,0.46502382600010606,m,19,mingda_green,2020_Aug_20_1120,SingleColor_green,2020.1.3,60.08453774258254,
41,0,41,0,103.75412256700656,None,b,1,0.22768958099914016,m,19,mingda_green,2020_Aug_20_1120,SingleColor_green,2020.1.3,60.08453774258254,
42,0,42,0,105.73725204900256,None,b,1,0.240261560997169,m,19,mingda_green,2020_Aug_20_1120,SingleColor_green,2020.1.3,60.08453774258254,
43,0,43,0,107.58696045400575,None,b,1,0.2396658040015609,m,19,mingda_green,2020_Aug_20_1120,SingleColor_green,2020.1.3,60.08453774258254,
44,0,44,0,109.5706793040008,None,b,1,0.2957813259999966,m,19,mingda_green,2020_Aug_20_1120,SingleColor_green,2020.1.3,60.08453774258254,
45,0,45,0,111.8534987660023,None,b,1,0.19472304299415555,m,19,mingda_green,2020_Aug_20_1120,SingleColor_green,2020.1.3,60.08453774258254,
46,0,46,0,113.71989296399988,None,b,1,0.2364877340005478,m,19,mingda_green,2020_Aug_20_1120,SingleColor_green,2020.1.3,60.08453774258254,
47,0,47,0,115.67000286900293,None,b,1,0.17723275999742327,m,19,mingda_green,2020_Aug_20_1120,SingleColor_green,2020.1.3,60.08453774258254,
48,0,48,0,117.77051550200122,None,b,1,0.22665454100206262,m,19,mingda_green,2020_Aug_20_1120,SingleColor_green,2020.1.3,60.08453774258254,
49,0,49,0,119.95339100300043,None,b,1,0.24276703099894803,m,19,mingda_green,2020_Aug_20_1120,SingleColor_green,2020.1.3,60.08453774258254,
